File: data_set_1/ftir/O3_izana_ftir_ndaccv4.dat
date_matlab year month day hour min seg Solar_Zenith_angle(º) Total_Column_O3total(E18mole/cm-2)
736574 2016 9.000000 1.000000 9.000000 26 41.856 55.308 8.126500
736574 2016 9.000000 1.000000 9.000000 52 35.328 49.745 8.150500
736574 2016 9.000000 1.000000 10 18 26.208 44.294 8.151200
736574 2016 9.000000 1.000000 10 44 19.68 38.997 8.165200
736575 2016 9.000000 1.000000 14 50 2.112000 31.897 8.238900
736579 2016 9.000000 6.000000 9.000000 17 53.952 57.757 7.760000
736579 2016 9.000000 6.000000 10 7.000000 51.168 47.156 7.751500
736579 2016 9.000000 6.000000 10 33 36.864 41.9 7.745100
736579 2016 9.000000 6.000000 10 59 31.2 36.857 7.745400
736579 2016 9.000000 6.000000 11 25 17.76 32.198 7.769200
736580 2016 9.000000 6.000000 12 10 10.848 25.557 7.809300
736580 2016 9.000000 6.000000 13 5.000000 9.599998 22.15 7.813900
736582 2016 9.000000 9.000000 11 12 13.248 35.103 7.561200
736582 2016 9.000000 9.000000 11 38 5.856003 30.783 7.563300
736583 2016 9.000000 9.000000 12 3.000000 46.368 27.192 7.569200
736583 2016 9.000000 9.000000 12 29 39.84 24.584 7.571300
736586 2016 9.000000 13 9.000000 45 20.736 52.785 7.894200
736586 2016 9.000000 13 10 11 13.344 47.475 7.880600
736586 2016 9.000000 13 11 2.000000 44.736 37.603 7.866600
736586 2016 9.000000 13 11 28 31.296 33.248 7.862500
736586 2016 9.000000 13 11 54 23.04 29.51 7.875200
736587 2016 9.000000 13 12 20 26.88 26.662 7.873300
736587 2016 9.000000 13 12 46 24.672 25.061 7.908400
736587 2016 9.000000 14 9.000000 45 51.84 52.815 7.899900
736587 2016 9.000000 14 10 11 39.264 47.542 7.881100
736587 2016 9.000000 14 10 37 32.736 42.459 7.882900
736587 2016 9.000000 14 11 3.000000 27.072 37.685 7.895800
736587 2016 9.000000 14 11 29 19.68 33.361 7.885500
736587 2016 9.000000 14 11 55 7.103996 29.7 7.874900
736588 2016 9.000000 14 12 20 53.664 26.953 7.879400
736588 2016 9.000000 14 12 46 41.088 25.421 7.877700
736588 2016 9.000000 14 13 13 49.728 25.363 7.896200
736588 2016 9.000000 14 14 2.000000 24.864 29.102 7.914900
736588 2016 9.000000 14 16 35 35.232 56.817 7.986500
736588 2016 9.000000 14 17 27 14.4 67.923 7.960300
736588 2016 9.000000 14 17 53 0.096001 73.555 7.963900
736588 2016 9.000000 14 18 18 51.84 79.239 7.963700
736588 2016 9.000000 15 9.000000 36 12.096 54.967 7.898200
736588 2016 9.000000 15 10 2.000000 5.568001 49.625 7.892700
736588 2016 9.000000 15 10 27 52.128 44.501 7.902300
736588 2016 9.000000 15 10 53 38.688 39.645 7.852900
736588 2016 9.000000 15 11 19 27.84 35.177 7.856500
736588 2016 9.000000 15 11 45 27.36 31.253 7.858000
736589 2016 9.000000 15 12 11 26.016 28.152 7.864000
736589 2016 9.000000 15 15 33 21.024 44.413 7.807500
736589 2016 9.000000 15 16 35 13.632 57.024 7.824600
736589 2016 9.000000 15 17 14 47.904 65.492 7.810500
736589 2016 9.000000 15 17 24 42.336 67.639 7.811900
736589 2016 9.000000 15 17 34 35.04 69.791 7.890400
736589 2016 9.000000 15 18 14 7.584000 78.458 7.838900
736589 2016 9.000000 15 18 24 2.015999 80.637 7.814900
736589 2016 9.000000 15 18 33 54.72 82.814 7.808900
736589 2016 9.000000 16 8.000000 41 23.712 66.78 7.770300
736589 2016 9.000000 16 9.000000 7.000000 17.184 61.212 7.780100
736589 2016 9.000000 16 9.000000 33 2.879997 55.762 7.808000
736589 2016 9.000000 16 9.000000 59 3.264000 50.396 7.836600
736589 2016 9.000000 16 10 24 55.008 45.247 7.852000
736589 2016 9.000000 16 10 50 41.568 40.381 7.871000
736589 2016 9.000000 16 11 16 29.856 35.895 7.877100
736590 2016 9.000000 16 12 9.000000 25.056 28.672 7.871600
736590 2016 9.000000 16 12 57 47.232 25.962 7.851700
736590 2016 9.000000 16 15 14 22.272 41.134 7.821800
736590 2016 9.000000 16 15 34 9.407997 44.881 7.819200
736590 2016 9.000000 16 15 44 2.112000 46.815 7.818800
736590 2016 9.000000 16 15 53 54.816 48.785 7.813900
736590 2016 9.000000 16 16 3.000000 48.384 50.785 7.817800
736590 2016 9.000000 16 16 13 41.088 52.811 7.823200
736590 2016 9.000000 16 16 23 34.656 54.864 7.820800
736590 2016 9.000000 16 16 33 28.224 56.935 7.828800
736590 2016 9.000000 16 16 43 22.656 59.03 7.819100
736590 2016 9.000000 16 16 53 16.224 61.134 7.818900
736590 2016 9.000000 16 17 3.000000 9.792000 63.255 7.807000
736590 2016 9.000000 16 17 13 3.360001 65.385 7.815900
736590 2016 9.000000 16 17 22 56.928 67.528 7.808800
736590 2016 9.000000 16 17 52 37.632 74.001 7.812100
736590 2016 9.000000 16 18 12 23.904 78.339 7.814900
736590 2016 9.000000 16 18 22 16.608 80.513 7.817100
736590 2016 9.000000 16 18 32 11.04 82.693 7.809400
736590 2016 9.000000 16 18 42 3.744003 84.87 7.794500
736593 2016 9.000000 20 8.000000 53 46.752 64.594 7.418900
736593 2016 9.000000 20 9.000000 3.000000 40.32 62.488 7.421300
736593 2016 9.000000 20 9.000000 13 33.024 60.397 7.423000
736593 2016 9.000000 20 9.000000 23 26.592 58.319 7.416200
736593 2016 9.000000 20 9.000000 33 20.16 56.263 7.419300
736593 2016 9.000000 20 9.000000 43 12.864 54.229 7.418600
736593 2016 9.000000 20 9.000000 53 6.431999 52.219 7.421700
736593 2016 9.000000 20 10 3.000000 0.000000 50.233 7.419700
736593 2016 9.000000 20 10 22 46.272 46.369 7.420100
736593 2016 9.000000 20 10 32 38.976 44.495 7.418600
736593 2016 9.000000 20 10 42 31.68 42.669 7.429500
736593 2016 9.000000 20 11 2.000000 18.816 39.179 7.428600
736593 2016 9.000000 20 11 12 12.384 37.536 7.438700
736593 2016 9.000000 20 11 22 5.087997 35.972 7.440800
736593 2016 9.000000 20 11 31 57.792 34.498 7.450600
736593 2016 9.000000 20 11 41 52.224 33.124 7.454800
736593 2016 9.000000 20 11 51 45.792 31.866 7.453700
736594 2016 9.000000 20 12 21 27.36 28.938 7.461200
736594 2016 9.000000 20 12 31 20.064 28.292 7.468100
736594 2016 9.000000 20 12 51 7.199997 27.57 7.474200
736594 2016 9.000000 20 13 3.000000 50.112 27.528 7.470800
736594 2016 9.000000 20 13 52 18.336 30.31 7.498400
736594 2016 9.000000 20 16 37 31.872 58.93 7.529800
736594 2016 9.000000 20 16 47 24.576 61.011 7.529600
736594 2016 9.000000 20 16 57 18.144 63.108 7.527300
736594 2016 9.000000 20 17 7.000000 10.848 65.219 7.528900
736594 2016 9.000000 20 17 17 5.279999 67.347 7.529400
736594 2016 9.000000 21 9.000000 51 52.128 52.625 7.636700
736594 2016 9.000000 21 10 17 38.688 47.533 7.633400
736594 2016 9.000000 21 10 43 25.248 42.711 7.631300
736594 2016 9.000000 21 11 9.000000 23.04 38.232 7.626300
736594 2016 9.000000 21 11 35 9.599998 34.314 7.610700
736595 2016 9.000000 21 12 4.000000 25.248 30.769 7.601300
736595 2016 9.000000 21 12 52 58.656 27.926 7.629600
736595 2016 9.000000 21 14 36 37.728 36.428 7.646400
736595 2016 9.000000 21 14 46 31.296 37.99 7.639700
736595 2016 9.000000 21 15 26 2.975998 44.934 7.627100
736595 2016 9.000000 21 15 35 56.544 46.807 7.627600
736595 2016 9.000000 21 15 45 50.112 48.719 7.623900
736595 2016 9.000000 21 15 55 42.816 50.666 7.618500
736595 2016 9.000000 21 16 5.000000 37.248 52.649 7.625800
736595 2016 9.000000 21 16 15 30.816 54.66 7.612400
736595 2016 9.000000 21 16 25 24.384 56.692 7.613200
736595 2016 9.000000 21 16 35 17.952 58.75 7.608800
736595 2016 9.000000 22 9.000000 21 35.136 58.988 7.647000
736595 2016 9.000000 22 9.000000 31 27.84 56.94 7.645000
736595 2016 9.000000 22 9.000000 41 22.272 54.91 7.650100
736595 2016 9.000000 22 9.000000 51 14.976 52.909 7.651000
736595 2016 9.000000 22 10 1.000000 8.543999 50.933 7.658000
736595 2016 9.000000 22 10 20 55.68 47.085 7.669300
736595 2016 9.000000 22 10 30 49.248 45.222 7.665800
736595 2016 9.000000 22 10 40 41.952 43.407 7.663200
736595 2016 9.000000 22 10 50 36.384 41.642 7.650900
736595 2016 9.000000 22 11 10 21.792 38.311 7.645600
736595 2016 9.000000 22 11 20 16.224 36.756 7.642900
736595 2016 9.000000 22 11 30 8.928001 35.293 7.644800
736595 2016 9.000000 22 11 40 3.360001 33.929 7.649900
736595 2016 9.000000 22 11 49 56.064 32.683 7.654800
736596 2016 9.000000 22 12 5.000000 30.048 30.984 7.659300
736596 2016 9.000000 22 12 54 5.183998 28.3 7.670000
736596 2016 9.000000 22 15 2.000000 39.84 41.048 7.729600
736596 2016 9.000000 22 15 12 34.272 42.793 7.732100
736596 2016 9.000000 22 15 22 26.976 44.591 7.740300
736596 2016 9.000000 22 15 32 20.544 46.442 7.755500
736596 2016 9.000000 22 15 42 14.112 48.333 7.758900
736596 2016 9.000000 22 15 52 7.680000 50.265 7.758800
736596 2016 9.000000 22 16 2.000000 1.248001 52.228 7.765900
736596 2016 9.000000 22 16 11 54.816 54.224 7.765500
736596 2016 9.000000 22 16 21 48.384 56.243 7.761200
736596 2016 9.000000 22 17 11 12.768 66.636 7.787700
736596 2016 9.000000 22 17 21 7.199997 68.763 7.793000
736596 2016 9.000000 22 17 30 59.904 70.897 7.789600
736596 2016 9.000000 22 17 40 52.608 73.04 7.792300
736596 2016 9.000000 22 17 50 46.176 75.191 7.793500
736596 2016 9.000000 22 18 0.000000 39.744 77.353 7.796000
736596 2016 9.000000 23 11 9.000000 43.776 38.654 7.763000
736599 2016 9.000000 26 7.000000 53 28.32 78.346 7.616200
736599 2016 9.000000 26 8.000000 3.000000 21.024 76.196 7.615700
736599 2016 9.000000 26 8.000000 13 14.592 74.051 7.604100
736599 2016 9.000000 26 8.000000 23 9.888000 71.911 7.608200
736599 2016 9.000000 26 8.000000 33 4.320000 69.785 7.610800
736599 2016 9.000000 26 8.000000 42 57.888 67.671 7.610400
736599 2016 9.000000 26 8.000000 52 52.32 65.57 7.602100
736599 2016 9.000000 26 9.000000 2.000000 45.888 63.485 7.600500
736599 2016 9.000000 26 9.000000 12 38.592 61.42 7.596700
736599 2016 9.000000 26 9.000000 22 33.888 59.368 7.579800
736599 2016 9.000000 26 9.000000 32 28.32 57.342 7.580600
736599 2016 9.000000 26 9.000000 42 21.024 55.344 7.580300
736599 2016 9.000000 26 9.000000 52 13.728 53.373 7.574400
736599 2016 9.000000 26 10 2.000000 8.160004 51.43 7.576200
736599 2016 9.000000 26 10 12 1.727997 49.523 7.558500
736599 2016 9.000000 26 10 36 2.015999 45.076 7.565900
736599 2016 9.000000 26 11 14 28.896 38.659 7.561000
736600 2016 9.000000 26 12 12 33.408 31.684 7.555200
736600 2016 9.000000 26 13 22 55.776 30.483 7.509600
736600 2016 9.000000 26 16 43 19.2 61.859 7.475900
736600 2016 9.000000 26 16 53 11.904 63.928 7.485600
736600 2016 9.000000 26 17 3.000000 4.608002 66.014 7.495700
736600 2016 9.000000 26 17 12 59.04 68.119 7.473400
736600 2016 9.000000 26 17 51 38.016 76.448 7.457700
736600 2016 9.000000 26 18 1.000000 30.72 78.6 7.437300
736600 2016 9.000000 27 7.000000 40 40.224 81.254 7.255700
736600 2016 9.000000 27 8.000000 6.000000 25.92 75.647 7.259300
736600 2016 9.000000 27 8.000000 32 11.616 70.098 7.271000
736600 2016 9.000000 27 8.000000 57 58.176 64.632 7.269200
736600 2016 9.000000 27 9.000000 23 45.6 59.274 7.260200
736600 2016 9.000000 27 9.000000 49 31.296 54.081 7.261900
736600 2016 9.000000 27 10 15 16.128 49.099 7.266600
736600 2016 9.000000 27 10 41 47.616 44.269 7.279900
736600 2016 9.000000 27 11 47 57.696 34.428 7.302200
736601 2016 9.000000 27 15 24 18.432 46.572 7.373800
736601 2016 9.000000 27 15 34 12 48.398 7.377600
736601 2016 9.000000 27 15 44 6.431999 50.269 7.389500
736601 2016 9.000000 27 15 53 59.136 52.176 7.393000
736601 2016 9.000000 27 16 3.000000 52.704 54.121 7.400200
736601 2016 9.000000 27 16 13 47.136 56.098 7.393600
736601 2016 9.000000 27 16 23 40.704 58.101 7.395200
736601 2016 9.000000 27 16 33 35.136 60.13 7.398000
736601 2016 9.000000 27 17 15 13.824 68.874 7.383200
736601 2016 9.000000 27 17 25 8.255997 70.992 7.385600
736601 2016 9.000000 27 17 35 1.823997 73.122 7.380600
736601 2016 9.000000 27 17 44 55.392 75.258 7.389100
736601 2016 9.000000 27 17 54 48.96 77.406 7.373400
736601 2016 9.000000 28 9.000000 34 25.824 57.262 7.716200
736601 2016 9.000000 28 9.000000 44 20.256 55.279 7.731200
736601 2016 9.000000 28 9.000000 54 13.824 53.326 7.755100
736601 2016 9.000000 28 10 4.000000 8.255997 51.406 7.777800
736601 2016 9.000000 28 10 14 2.688004 49.521 7.787300
736601 2016 9.000000 28 10 23 57.12 47.681 7.806400
736601 2016 9.000000 28 10 33 50.688 45.889 7.824900
736601 2016 9.000000 28 10 43 44.256 44.154 7.839700
736601 2016 9.000000 28 10 53 38.688 42.473 7.857400
736601 2016 9.000000 28 11 3.000000 33.12 40.864 7.865900
736601 2016 9.000000 28 11 23 21.12 37.886 7.890600
736601 2016 9.000000 28 11 33 15.552 36.535 7.902700
736601 2016 9.000000 28 11 43 9.984001 35.295 7.914000
736601 2016 9.000000 28 11 53 2.688004 34.176 7.923500
736602 2016 9.000000 28 12 2.000000 57.984 33.187 7.936500
736602 2016 9.000000 28 12 12 51.552 32.344 7.932100
736602 2016 9.000000 28 12 22 45.984 31.657 7.934300
736602 2016 9.000000 28 12 32 38.688 31.139 7.935500
736602 2016 9.000000 28 12 42 33.12 30.794 7.929500
736602 2016 9.000000 28 12 52 29.28 30.63 7.947300
736602 2016 9.000000 28 13 2.000000 21.984 30.652 7.948000
736602 2016 9.000000 28 13 12 16.416 30.857 7.957400
736602 2016 9.000000 28 13 22 9.984001 31.242 7.954700
736602 2016 9.000000 28 13 32 5.279999 31.802 7.962700
736602 2016 9.000000 28 14 33 2.592003 38.439 8.000900
736602 2016 9.000000 29 10 45 40.032 44.048 8.007000
736602 2016 9.000000 29 10 55 32.736 42.397 8.016600
736602 2016 9.000000 29 11 5.000000 27.168 40.814 8.023500
736602 2016 9.000000 29 11 15 19.872 39.313 8.026700
736602 2016 9.000000 29 11 25 14.304 37.899 8.034000
736602 2016 9.000000 29 11 35 7.872002 36.583 8.028100
736602 2016 9.000000 29 11 54 56.736 34.295 8.028100
736603 2016 9.000000 29 12 4.000000 51.168 33.348 8.031800
736603 2016 9.000000 29 12 14 44.736 32.548 8.026500
736603 2016 9.000000 29 13 31 25.536 32.157 7.996800
736603 2016 9.000000 29 14 16 40.224 36.573 7.995300
736603 2016 9.000000 29 16 19 29.28 57.84 7.950400
736603 2016 9.000000 29 16 39 19.008 61.889 7.937100
736603 2016 9.000000 29 17 31 43.104 72.947 7.916800
736603 2016 9.000000 29 17 41 35.808 75.075 7.917300
736603 2016 9.000000 29 17 51 29.376 77.212 7.911600
736603 2016 9.000000 30 9.000000 53 7.295998 53.899 7.943100
736603 2016 9.000000 30 10 19 18.912 48.937 7.962500
736603 2016 9.000000 30 11 7.000000 40.224 40.726 7.983300
736603 2016 9.000000 30 11 57 21.024 34.377 7.975900
736604 2016 9.000000 30 12 45 44.064 31.483 7.955800
736604 2016 9.000000 30 13 45 46.944 33.631 7.932100